date	time	group	subject	build	blocknum	trialnum	blockcode	trialcode	pretrialpause	posttrialpause	windowcenter	trialduration	trialtimeout	blocktimeout	response	correct	latency	inwindow	stimulusnumber1	stimulusitem1	stimulusvpos1	stimulushpos1	stimulusonset1	stimulusnumber2	stimulusitem2	stimulusvpos2	stimulushpos2	stimulusonset2
011318	15:24:20	1	1	4.0.10.0	2	1	word_block	greenword_trial	500	0	0	0	0	0	33	1	36	0	1	√	70pct	50pct	499	0	0	0	0	0
011318	15:24:20	1	1	4.0.10.0	2	2	word_block	greenword_trial	500	0	0	0	0	0	33	1	24	0	1	√	70pct	50pct	549	0	0	0	0	0
011318	15:24:20	1	1	4.0.10.0	2	3	word_block	redword_trial	500	0	0	0	0	0	36	1	35	0	1	√	70pct	50pct	516	0	0	0	0	0
011318	15:24:20	1	1	4.0.10.0	2	4	word_block	greenword_trial	500	0	0	0	0	0	33	1	28	0	1	√	70pct	50pct	549	0	0	0	0	0
011318	15:24:20	1	1	4.0.10.0	2	5	word_block	redword_trial	500	0	0	0	0	0	36	1	59	0	1	√	70pct	50pct	599	0	0	0	0	0
011318	15:24:20	1	1	4.0.10.0	2	6	word_block	redword_trial	500	0	0	0	0	0	36	1	36	0	1	√	70pct	50pct	499	0	0	0	0	0
011318	15:24:20	1	1	4.0.10.0	2	7	word_block	greenword_trial	500	0	0	0	0	0	33	1	42	0	1	√	70pct	50pct	616	0	0	0	0	0
011318	15:24:20	1	1	4.0.10.0	2	8	word_block	greenword_trial	500	0	0	0	0	0	33	1	41	0	1	√	70pct	50pct	666	0	0	0	0	0
011318	15:24:20	1	1	4.0.10.0	2	9	word_block	greenword_trial	500	0	0	0	0	0	33	1	36	0	1	√	70pct	50pct	516	0	0	0	0	0
011318	15:24:20	1	1	4.0.10.0	2	10	word_block	greenword_trial	500	0	0	0	0	0	33	1	43	0	1	√	70pct	50pct	649	0	0	0	0	0
011318	15:24:20	1	1	4.0.10.0	2	11	word_block	greenword_trial	500	0	0	0	0	0	33	1	44	0	1	√	70pct	50pct	599	0	0	0	0	0
011318	15:24:20	1	1	4.0.10.0	2	12	word_block	redword_trial	500	0	0	0	0	0	36	1	35	0	1	√	70pct	50pct	566	0	0	0	0	0
011318	15:24:20	1	1	4.0.10.0	2	13	word_block	greenword_trial	500	0	0	0	0	0	33	1	51	0	1	√	70pct	50pct	699	0	0	0	0	0
011318	15:24:20	1	1	4.0.10.0	2	14	word_block	redword_trial	500	0	0	0	0	0	36	1	28	0	1	√	70pct	50pct	633	0	0	0	0	0
011318	15:24:20	1	1	4.0.10.0	2	15	word_block	greenword_trial	500	0	0	0	0	0	33	1	37	0	1	√	70pct	50pct	516	0	0	0	0	0
011318	15:24:20	1	1	4.0.10.0	2	16	word_block	redword_trial	500	0	0	0	0	0	33	0	20	0	1	X	70pct	50pct	666	0	0	0	0	0
011318	15:24:20	1	1	4.0.10.0	2	17	word_block	redword_trial	500	0	0	0	0	0	33	0	18	0	1	X	70pct	50pct	616	0	0	0	0	0
011318	15:24:20	1	1	4.0.10.0	2	18	word_block	greenword_trial	500	0	0	0	0	0	33	1	43	0	1	√	70pct	50pct	583	0	0	0	0	0
011318	15:24:20	1	1	4.0.10.0	2	19	word_block	greenword_trial	500	0	0	0	0	0	33	1	36	0	1	√	70pct	50pct	483	0	0	0	0	0
011318	15:24:20	1	1	4.0.10.0	2	20	word_block	redword_trial	500	0	0	0	0	0	33	0	23	0	1	X	70pct	50pct	616	0	0	0	0	0
011318	15:24:20	1	1	4.0.10.0	2	21	word_block	greenword_trial	500	0	0	0	0	0	33	1	43	0	1	√	70pct	50pct	616	0	0	0	0	0
011318	15:24:20	1	1	4.0.10.0	2	22	word_block	greenword_trial	500	0	0	0	0	0	33	1	54	0	1	√	70pct	50pct	533	0	0	0	0	0
011318	15:24:20	1	1	4.0.10.0	2	23	word_block	greenword_trial	500	0	0	0	0	0	33	1	27	0	1	√	70pct	50pct	599	0	0	0	0	0
011318	15:24:20	1	1	4.0.10.0	2	24	word_block	redword_trial	500	0	0	0	0	0	36	1	50	0	1	√	70pct	50pct	633	0	0	0	0	0
011318	15:24:20	1	1	4.0.10.0	2	25	word_block	redword_trial	500	0	0	0	0	0	36	1	36	0	1	√	70pct	50pct	649	0	0	0	0	0
011318	15:24:20	1	1	4.0.10.0	2	26	word_block	redword_trial	500	0	0	0	0	0	36	1	51	0	1	√	70pct	50pct	683	0	0	0	0	0
011318	15:24:20	1	1	4.0.10.0	2	27	word_block	greenword_trial	500	0	0	0	0	0	33	1	39	0	1	√	70pct	50pct	616	0	0	0	0	0
011318	15:24:20	1	1	4.0.10.0	2	28	word_block	redword_trial	500	0	0	0	0	0	33	0	44	0	1	X	70pct	50pct	583	0	0	0	0	0
011318	15:24:20	1	1	4.0.10.0	2	29	word_block	redword_trial	500	0	0	0	0	0	36	1	29	0	1	√	70pct	50pct	549	0	0	0	0	0
011318	15:24:20	1	1	4.0.10.0	2	30	word_block	greenword_trial	500	0	0	0	0	0	33	1	27	0	1	√	70pct	50pct	649	0	0	0	0	0
011318	15:24:20	1	1	4.0.10.0	2	31	word_block	greenword_trial	500	0	0	0	0	0	33	1	40	0	1	√	70pct	50pct	533	0	0	0	0	0
011318	15:24:20	1	1	4.0.10.0	2	32	word_block	redword_trial	500	0	0	0	0	0	36	1	43	0	1	√	70pct	50pct	533	0	0	0	0	0
011318	15:24:20	1	1	4.0.10.0	2	33	word_block	redword_trial	500	0	0	0	0	0	33	0	34	0	1	X	70pct	50pct	483	0	0	0	0	0
011318	15:24:20	1	1	4.0.10.0	2	34	word_block	greenword_trial	500	0	0	0	0	0	33	1	39	0	1	√	70pct	50pct	566	0	0	0	0	0
011318	15:24:20	1	1	4.0.10.0	2	35	word_block	redword_trial	500	0	0	0	0	0	36	1	36	0	1	√	70pct	50pct	666	0	0	0	0	0
011318	15:24:20	1	1	4.0.10.0	2	36	word_block	redword_trial	500	0	0	0	0	0	36	1	43	0	1	√	70pct	50pct	599	0	0	0	0	0
011318	15:24:20	1	1	4.0.10.0	2	37	word_block	redword_trial	500	0	0	0	0	0	36	1	65	0	1	√	70pct	50pct	566	0	0	0	0	0
011318	15:24:20	1	1	4.0.10.0	2	38	word_block	redword_trial	500	0	0	0	0	0	36	1	55	0	1	√	70pct	50pct	516	0	0	0	0	0
011318	15:24:20	1	1	4.0.10.0	2	39	word_block	greenword_trial	500	0	0	0	0	0	33	1	57	0	1	√	70pct	50pct	516	0	0	0	0	0
011318	15:24:20	1	1	4.0.10.0	2	40	word_block	redword_trial	500	0	0	0	0	0	36	1	31	0	1	√	70pct	50pct	616	0	0	0	0	0
011318	15:24:20	1	1	4.0.10.0	3	1	instruction_frustrationpractice_block	end_trial	0	0	0	0	0	0	57	1	15	0	1	end.jpg	50pct	50pct	0	0	0	0	0	0
011318	15:24:20	1	1	4.0.10.0	4	1	frustrationpractice_block	frustrationpracticea_trial	0	0	0	0	0	0	33	1	26	0	2	practice2.jpg	50pct	50pct	1	1	√	70pct	50pct	33
011318	15:24:20	1	1	4.0.10.0	4	2	frustrationpractice_block	frustrationpracticeb_trial	0	0	0	0	0	0	33	0	36	0	2	practice5.jpg	50pct	50pct	0	1	X	70pct	50pct	50
011318	15:24:20	1	1	4.0.10.0	4	3	frustrationpractice_block	frustrationpracticea_trial	0	0	0	0	0	0	36	0	39	0	1	practice1.jpg	50pct	50pct	0	1	X	70pct	50pct	49
011318	15:24:20	1	1	4.0.10.0	4	4	frustrationpractice_block	frustrationpracticeb_trial	0	0	0	0	0	0	33	0	51	0	1	practice4.jpg	50pct	50pct	0	1	X	70pct	50pct	66
011318	15:24:20	1	1	4.0.10.0	6	1	frustrationformala_block	frustrationformala_trial	0	0	0	0	0	0	36	0	39	0	2	formal2.jpg	50pct	50pct	1	0	0	0	0	0
011318	15:24:20	1	1	4.0.10.0	6	2	frustrationformala_block	frustrationformala_trial	0	0	0	0	0	0	36	0	33	0	1	formal1.jpg	50pct	50pct	0	0	0	0	0	0
011318	15:24:20	1	1	4.0.10.0	7	1	frustrationformal3_block	frustrationformal3_trial	0	0	0	0	0	0	36	0	30	0	1	formal3.jpg	50pct	50pct	1	0	0	0	0	0
011318	15:24:20	1	1	4.0.10.0	8	1	instruction_word2_block	end_trial	0	0	0	0	0	0	57	1	43	0	1	end.jpg	50pct	50pct	0	0	0	0	0	0
011318	15:24:20	1	1	4.0.10.0	9	1	word_block	greenword_trial	500	0	0	0	0	0	36	0	24	0	1	X	70pct	50pct	483	0	0	0	0	0
011318	15:24:20	1	1	4.0.10.0	9	2	word_block	greenword_trial	500	0	0	0	0	0	33	1	48	0	1	√	70pct	50pct	649	0	0	0	0	0
011318	15:24:20	1	1	4.0.10.0	9	3	word_block	greenword_trial	500	0	0	0	0	0	33	1	40	0	1	√	70pct	50pct	516	0	0	0	0	0
011318	15:24:20	1	1	4.0.10.0	9	4	word_block	redword_trial	500	0	0	0	0	0	36	1	23	0	1	√	70pct	50pct	499	0	0	0	0	0
011318	15:24:20	1	1	4.0.10.0	9	5	word_block	greenword_trial	500	0	0	0	0	0	33	1	35	0	1	√	70pct	50pct	633	0	0	0	0	0
011318	15:24:20	1	1	4.0.10.0	9	6	word_block	redword_trial	500	0	0	0	0	0	33	0	55	0	1	X	70pct	50pct	616	0	0	0	0	0
011318	15:24:20	1	1	4.0.10.0	9	7	word_block	greenword_trial	500	0	0	0	0	0	36	0	48	0	1	X	70pct	50pct	499	0	0	0	0	0
011318	15:24:20	1	1	4.0.10.0	9	8	word_block	greenword_trial	500	0	0	0	0	0	33	1	44	0	1	√	70pct	50pct	499	0	0	0	0	0
011318	15:24:20	1	1	4.0.10.0	9	9	word_block	greenword_trial	500	0	0	0	0	0	33	1	28	0	1	√	70pct	50pct	633	0	0	0	0	0
011318	15:24:20	1	1	4.0.10.0	9	10	word_block	redword_trial	500	0	0	0	0	0	33	0	66	0	1	X	70pct	50pct	533	0	0	0	0	0
011318	15:24:20	1	1	4.0.10.0	9	11	word_block	redword_trial	500	0	0	0	0	0	33	0	30	0	1	X	70pct	50pct	516	0	0	0	0	0
011318	15:24:20	1	1	4.0.10.0	9	12	word_block	redword_trial	500	0	0	0	0	0	36	1	45	0	1	√	70pct	50pct	533	0	0	0	0	0
011318	15:24:20	1	1	4.0.10.0	9	13	word_block	greenword_trial	500	0	0	0	0	0	36	0	38	0	1	X	70pct	50pct	633	0	0	0	0	0
011318	15:24:20	1	1	4.0.10.0	9	14	word_block	greenword_trial	500	0	0	0	0	0	33	1	26	0	1	√	70pct	50pct	616	0	0	0	0	0
011318	15:24:20	1	1	4.0.10.0	9	15	word_block	redword_trial	500	0	0	0	0	0	36	1	19	0	1	√	70pct	50pct	483	0	0	0	0	0
011318	15:24:20	1	1	4.0.10.0	9	16	word_block	redword_trial	500	0	0	0	0	0	36	1	34	0	1	√	70pct	50pct	616	0	0	0	0	0
011318	15:24:20	1	1	4.0.10.0	9	17	word_block	greenword_trial	500	0	0	0	0	0	33	1	39	0	1	√	70pct	50pct	599	0	0	0	0	0
011318	15:24:20	1	1	4.0.10.0	9	18	word_block	redword_trial	500	0	0	0	0	0	36	1	45	0	1	√	70pct	50pct	666	0	0	0	0	0
011318	15:24:20	1	1	4.0.10.0	9	19	word_block	redword_trial	500	0	0	0	0	0	36	1	41	0	1	√	70pct	50pct	683	0	0	0	0	0
011318	15:24:20	1	1	4.0.10.0	9	20	word_block	redword_trial	500	0	0	0	0	0	36	1	39	0	1	√	70pct	50pct	616	0	0	0	0	0
011318	15:24:20	1	1	4.0.10.0	9	21	word_block	greenword_trial	500	0	0	0	0	0	36	0	64	0	1	X	70pct	50pct	699	0	0	0	0	0
011318	15:24:20	1	1	4.0.10.0	9	22	word_block	redword_trial	500	0	0	0	0	0	33	0	24	0	1	X	70pct	50pct	549	0	0	0	0	0
011318	15:24:20	1	1	4.0.10.0	9	23	word_block	greenword_trial	500	0	0	0	0	0	33	1	38	0	1	√	70pct	50pct	583	0	0	0	0	0
011318	15:24:20	1	1	4.0.10.0	9	24	word_block	redword_trial	500	0	0	0	0	0	33	0	31	0	1	X	70pct	50pct	650	0	0	0	0	0
011318	15:24:20	1	1	4.0.10.0	9	25	word_block	greenword_trial	500	0	0	0	0	0	36	0	49	0	1	X	70pct	50pct	633	0	0	0	0	0
011318	15:24:20	1	1	4.0.10.0	9	26	word_block	redword_trial	500	0	0	0	0	0	36	1	33	0	1	√	70pct	50pct	516	0	0	0	0	0
011318	15:24:20	1	1	4.0.10.0	9	27	word_block	redword_trial	500	0	0	0	0	0	33	0	38	0	1	X	70pct	50pct	516	0	0	0	0	0
011318	15:24:20	1	1	4.0.10.0	9	28	word_block	redword_trial	500	0	0	0	0	0	36	1	25	0	1	√	70pct	50pct	583	0	0	0	0	0
011318	15:24:20	1	1	4.0.10.0	9	29	word_block	redword_trial	500	0	0	0	0	0	36	1	50	0	1	√	70pct	50pct	699	0	0	0	0	0
011318	15:24:20	1	1	4.0.10.0	9	30	word_block	greenword_trial	500	0	0	0	0	0	33	1	50	0	1	√	70pct	50pct	516	0	0	0	0	0
011318	15:24:20	1	1	4.0.10.0	9	31	word_block	greenword_trial	500	0	0	0	0	0	33	1	26	0	1	√	70pct	50pct	599	0	0	0	0	0
011318	15:24:20	1	1	4.0.10.0	9	32	word_block	greenword_trial	500	0	0	0	0	0	33	1	25	0	1	√	70pct	50pct	649	0	0	0	0	0
011318	15:24:20	1	1	4.0.10.0	9	33	word_block	greenword_trial	500	0	0	0	0	0	33	1	51	0	1	√	70pct	50pct	666	0	0	0	0	0
011318	15:24:20	1	1	4.0.10.0	9	34	word_block	greenword_trial	500	0	0	0	0	0	36	0	57	0	1	X	70pct	50pct	549	0	0	0	0	0
011318	15:24:20	1	1	4.0.10.0	9	35	word_block	redword_trial	500	0	0	0	0	0	33	0	49	0	1	X	70pct	50pct	516	0	0	0	0	0
011318	15:24:20	1	1	4.0.10.0	9	36	word_block	redword_trial	500	0	0	0	0	0	36	1	35	0	1	√	70pct	50pct	666	0	0	0	0	0
011318	15:24:20	1	1	4.0.10.0	9	37	word_block	redword_trial	500	0	0	0	0	0	33	0	45	0	1	X	70pct	50pct	483	0	0	0	0	0
011318	15:24:20	1	1	4.0.10.0	9	38	word_block	greenword_trial	500	0	0	0	0	0	33	1	44	0	1	√	70pct	50pct	549	0	0	0	0	0
011318	15:24:20	1	1	4.0.10.0	9	39	word_block	greenword_trial	500	0	0	0	0	0	33	1	35	0	1	√	70pct	50pct	499	0	0	0	0	0
011318	15:24:20	1	1	4.0.10.0	9	40	word_block	redword_trial	500	0	0	0	0	0	36	1	34	0	1	√	70pct	50pct	599	0	0	0	0	0
011318	15:24:20	1	1	4.0.10.0	10	1	end_block	end_trial	0	0	0	0	0	0	57	1	45	0	1	end.jpg	50pct	50pct	1	0	0	0	0	0
