date	time	group	subject	build	blocknum	trialnum	blockcode	trialcode	pretrialpause	posttrialpause	windowcenter	trialduration	trialtimeout	blocktimeout	response	correct	latency	inwindow	stimulusnumber1	stimulusitem1	stimulusvpos1	stimulushpos1	stimulusonset1	stimulusnumber2	stimulusitem2	stimulusvpos2	stimulushpos2	stimulusonset2
122717	19:19:06	1	1	4.0.10.0	1	1	mainpart_block	greenword_trial	500	0	0	0	0	0	36	0	52	0	1	X	70pct	50pct	541	0	0	0	0	0
122717	19:19:06	1	1	4.0.10.0	1	2	mainpart_block	greenword_trial	500	0	0	0	0	0	33	1	40	0	1	√	70pct	50pct	604	0	0	0	0	0
122717	19:19:06	1	1	4.0.10.0	1	3	mainpart_block	redword_trial	500	0	0	0	0	0	33	0	28	0	1	X	70pct	50pct	645	0	0	0	0	0
122717	19:19:06	1	1	4.0.10.0	1	4	mainpart_block	greenword_trial	500	0	0	0	0	0	33	1	15	0	1	√	70pct	50pct	625	0	0	0	0	0
122717	19:19:06	1	1	4.0.10.0	1	5	mainpart_block	greenword_trial	500	0	0	0	0	0	36	0	43	0	1	X	70pct	50pct	604	0	0	0	0	0
122717	19:19:06	1	1	4.0.10.0	1	6	mainpart_block	redword_trial	500	0	0	0	0	0	36	1	36	0	1	√	70pct	50pct	500	0	0	0	0	0
122717	19:19:06	1	1	4.0.10.0	1	7	mainpart_block	greenword_trial	500	0	0	0	0	0	33	1	19	0	1	√	70pct	50pct	479	0	0	0	0	0
122717	19:19:06	1	1	4.0.10.0	1	8	mainpart_block	greenword_trial	500	0	0	0	0	0	33	1	49	0	1	√	70pct	50pct	541	0	0	0	0	0
122717	19:19:06	1	1	4.0.10.0	1	9	mainpart_block	redword_trial	500	0	0	0	0	0	33	0	54	0	1	X	70pct	50pct	562	0	0	0	0	0
122717	19:19:06	1	1	4.0.10.0	1	10	mainpart_block	greenword_trial	500	0	0	0	0	0	33	1	41	0	1	√	70pct	50pct	687	0	0	0	0	0
122717	19:19:06	1	1	4.0.10.0	1	11	mainpart_block	redword_trial	500	0	0	0	0	0	33	0	53	0	1	X	70pct	50pct	625	0	0	0	0	0
122717	19:19:06	1	1	4.0.10.0	1	12	mainpart_block	redword_trial	500	0	0	0	0	0	33	0	61	0	1	X	70pct	50pct	624	0	0	0	0	0
122717	19:19:06	1	1	4.0.10.0	1	13	mainpart_block	greenword_trial	500	0	0	0	0	0	33	1	45	0	1	√	70pct	50pct	645	0	0	0	0	0
122717	19:19:06	1	1	4.0.10.0	1	14	mainpart_block	redword_trial	500	0	0	0	0	0	36	1	25	0	1	√	70pct	50pct	541	0	0	0	0	0
122717	19:19:06	1	1	4.0.10.0	1	15	mainpart_block	greenword_trial	500	0	0	0	0	0	36	0	42	0	1	X	70pct	50pct	687	0	0	0	0	0
122717	19:19:06	1	1	4.0.10.0	1	16	mainpart_block	greenword_trial	500	0	0	0	0	0	36	0	52	0	1	X	70pct	50pct	687	0	0	0	0	0
122717	19:19:06	1	1	4.0.10.0	1	17	mainpart_block	redword_trial	500	0	0	0	0	0	36	1	39	0	1	√	70pct	50pct	603	0	0	0	0	0
122717	19:19:06	1	1	4.0.10.0	1	18	mainpart_block	greenword_trial	500	0	0	0	0	0	33	1	50	0	1	√	70pct	50pct	541	0	0	0	0	0
122717	19:19:06	1	1	4.0.10.0	1	19	mainpart_block	greenword_trial	500	0	0	0	0	0	33	1	40	0	1	√	70pct	50pct	499	0	0	0	0	0
122717	19:19:06	1	1	4.0.10.0	1	20	mainpart_block	redword_trial	500	0	0	0	0	0	36	1	40	0	1	√	70pct	50pct	646	0	0	0	0	0
122717	19:19:06	1	1	4.0.10.0	1	21	mainpart_block	redword_trial	500	0	0	0	0	0	36	1	43	0	1	√	70pct	50pct	646	0	0	0	0	0
122717	19:19:06	1	1	4.0.10.0	1	22	mainpart_block	greenword_trial	500	0	0	0	0	0	33	1	20	0	1	√	70pct	50pct	583	0	0	0	0	0
122717	19:19:06	1	1	4.0.10.0	1	23	mainpart_block	redword_trial	500	0	0	0	0	0	36	1	46	0	1	√	70pct	50pct	562	0	0	0	0	0
122717	19:19:06	1	1	4.0.10.0	1	24	mainpart_block	greenword_trial	500	0	0	0	0	0	36	0	40	0	1	X	70pct	50pct	666	0	0	0	0	0
122717	19:19:06	1	1	4.0.10.0	1	25	mainpart_block	greenword_trial	500	0	0	0	0	0	33	1	39	0	1	√	70pct	50pct	645	0	0	0	0	0
122717	19:19:06	1	1	4.0.10.0	1	26	mainpart_block	redword_trial	500	0	0	0	0	0	36	1	42	0	1	√	70pct	50pct	645	0	0	0	0	0
122717	19:19:06	1	1	4.0.10.0	1	27	mainpart_block	greenword_trial	500	0	0	0	0	0	36	0	32	0	1	X	70pct	50pct	625	0	0	0	0	0
122717	19:19:06	1	1	4.0.10.0	1	28	mainpart_block	redword_trial	500	0	0	0	0	0	33	0	29	0	1	X	70pct	50pct	562	0	0	0	0	0
122717	19:19:06	1	1	4.0.10.0	1	29	mainpart_block	redword_trial	500	0	0	0	0	0	33	0	53	0	1	X	70pct	50pct	625	0	0	0	0	0
122717	19:19:06	1	1	4.0.10.0	1	30	mainpart_block	redword_trial	500	0	0	0	0	0	33	0	46	0	1	X	70pct	50pct	520	0	0	0	0	0
122717	19:19:06	1	1	4.0.10.0	1	31	mainpart_block	redword_trial	500	0	0	0	0	0	36	1	46	0	1	√	70pct	50pct	583	0	0	0	0	0
122717	19:19:06	1	1	4.0.10.0	1	32	mainpart_block	greenword_trial	500	0	0	0	0	0	33	1	40	0	1	√	70pct	50pct	666	0	0	0	0	0
122717	19:19:06	1	1	4.0.10.0	1	33	mainpart_block	redword_trial	500	0	0	0	0	0	33	0	13	0	1	X	70pct	50pct	604	0	0	0	0	0
122717	19:19:06	1	1	4.0.10.0	1	34	mainpart_block	greenword_trial	500	0	0	0	0	0	36	0	41	0	1	X	70pct	50pct	666	0	0	0	0	0
122717	19:19:06	1	1	4.0.10.0	1	35	mainpart_block	redword_trial	500	0	0	0	0	0	36	1	49	0	1	√	70pct	50pct	666	0	0	0	0	0
122717	19:19:06	1	1	4.0.10.0	1	36	mainpart_block	redword_trial	500	0	0	0	0	0	36	1	33	0	1	√	70pct	50pct	624	0	0	0	0	0
122717	19:19:06	1	1	4.0.10.0	1	37	mainpart_block	greenword_trial	500	0	0	0	0	0	36	0	42	0	1	X	70pct	50pct	562	0	0	0	0	0
122717	19:19:06	1	1	4.0.10.0	1	38	mainpart_block	redword_trial	500	0	0	0	0	0	33	0	50	0	1	X	70pct	50pct	520	0	0	0	0	0
122717	19:19:06	1	1	4.0.10.0	1	39	mainpart_block	greenword_trial	500	0	0	0	0	0	36	0	44	0	1	X	70pct	50pct	604	0	0	0	0	0
122717	19:19:06	1	1	4.0.10.0	1	40	mainpart_block	redword_trial	500	0	0	0	0	0	36	1	42	0	1	√	70pct	50pct	499	0	0	0	0	0
122717	19:52:11	1	1	4.0.10.0	1	1	mainpart_block	greenword_trial	500	0	0	0	0	0	33	1	2521	0	1	√	70pct	50pct	3125	0	0	0	0	0
122717	19:52:11	1	1	4.0.10.0	1	2	mainpart_block	greenword_trial	500	0	0	0	0	0	33	1	7213	0	1	√	70pct	50pct	7770	0	0	0	0	0
122717	19:52:11	1	1	4.0.10.0	1	3	mainpart_block	redword_trial	500	0	0	0	0	0	36	1	246	0	1	√	70pct	50pct	874	0	0	0	0	0
122717	19:52:11	1	1	4.0.10.0	1	4	mainpart_block	redword_trial	500	0	0	0	0	0	33	0	279	0	1	X	70pct	50pct	750	0	0	0	0	0
122717	19:52:11	1	1	4.0.10.0	1	5	mainpart_block	greenword_trial	500	0	0	0	0	0	33	1	427	0	1	√	70pct	50pct	895	0	0	0	0	0
122717	19:52:11	1	1	4.0.10.0	1	6	mainpart_block	redword_trial	500	0	0	0	0	0	36	1	309	0	1	√	70pct	50pct	833	0	0	0	0	0
122717	19:52:11	1	1	4.0.10.0	1	7	mainpart_block	redword_trial	500	0	0	0	0	0	36	1	351	0	1	√	70pct	50pct	978	0	0	0	0	0
122717	19:52:11	1	1	4.0.10.0	1	8	mainpart_block	greenword_trial	500	0	0	0	0	0	33	1	338	0	1	√	70pct	50pct	957	0	0	0	0	0
122717	19:52:11	1	1	4.0.10.0	1	9	mainpart_block	greenword_trial	500	0	0	0	0	0	33	1	337	0	1	√	70pct	50pct	979	0	0	0	0	0
122717	19:52:11	1	1	4.0.10.0	1	10	mainpart_block	redword_trial	500	0	0	0	0	0	36	1	303	0	1	√	70pct	50pct	874	0	0	0	0	0
122717	19:52:11	1	1	4.0.10.0	1	11	mainpart_block	greenword_trial	500	0	0	0	0	0	33	1	367	0	1	√	70pct	50pct	833	0	0	0	0	0
122717	19:52:11	1	1	4.0.10.0	1	12	mainpart_block	greenword_trial	500	0	0	0	0	0	33	1	339	0	1	√	70pct	50pct	833	0	0	0	0	0
122717	19:52:11	1	1	4.0.10.0	1	13	mainpart_block	greenword_trial	500	0	0	0	0	0	33	1	329	0	1	√	70pct	50pct	874	0	0	0	0	0
122717	19:52:11	1	1	4.0.10.0	1	14	mainpart_block	redword_trial	500	0	0	0	0	0	36	1	367	0	1	√	70pct	50pct	1020	0	0	0	0	0
122717	19:52:11	1	1	4.0.10.0	1	15	mainpart_block	greenword_trial	500	0	0	0	0	0	33	1	295	0	1	√	70pct	50pct	833	0	0	0	0	0
122717	19:52:11	1	1	4.0.10.0	1	16	mainpart_block	greenword_trial	500	0	0	0	0	0	33	1	308	0	1	√	70pct	50pct	937	0	0	0	0	0
122717	19:52:11	1	1	4.0.10.0	1	17	mainpart_block	greenword_trial	500	0	0	0	0	0	33	1	290	0	1	√	70pct	50pct	853	0	0	0	0	0
122717	19:52:11	1	1	4.0.10.0	1	18	mainpart_block	redword_trial	500	0	0	0	0	0	36	1	340	0	1	√	70pct	50pct	958	0	0	0	0	0
122717	19:52:11	1	1	4.0.10.0	1	19	mainpart_block	redword_trial	500	0	0	0	0	0	36	1	378	0	1	√	70pct	50pct	1020	0	0	0	0	0
122717	19:52:11	1	1	4.0.10.0	1	20	mainpart_block	redword_trial	500	0	0	0	0	0	36	1	296	0	1	√	70pct	50pct	937	0	0	0	0	0
122717	19:52:11	1	1	4.0.10.0	1	21	mainpart_block	redword_trial	500	0	0	0	0	0	36	1	385	0	1	√	70pct	50pct	896	0	0	0	0	0
122717	19:52:11	1	1	4.0.10.0	1	22	mainpart_block	redword_trial	500	0	0	0	0	0	36	1	405	0	1	√	70pct	50pct	999	0	0	0	0	0
122717	19:52:11	1	1	4.0.10.0	1	23	mainpart_block	redword_trial	500	0	0	0	0	0	36	1	282	0	1	√	70pct	50pct	916	0	0	0	0	0
122717	19:52:11	1	1	4.0.10.0	1	24	mainpart_block	greenword_trial	500	0	0	0	0	0	33	1	371	0	1	√	70pct	50pct	958	0	0	0	0	0
122717	19:52:11	1	1	4.0.10.0	1	25	mainpart_block	redword_trial	500	0	0	0	0	0	33	0	388	0	1	X	70pct	50pct	937	0	0	0	0	0
122717	19:52:11	1	1	4.0.10.0	1	26	mainpart_block	redword_trial	500	0	0	0	0	0	36	1	511	0	1	√	70pct	50pct	1083	0	0	0	0	0
122717	19:52:11	1	1	4.0.10.0	1	27	mainpart_block	redword_trial	500	0	0	0	0	0	36	1	1066	0	1	√	70pct	50pct	1708	0	0	0	0	0
122717	19:52:11	1	1	4.0.10.0	1	28	mainpart_block	redword_trial	500	0	0	0	0	0	36	1	3487	0	1	√	70pct	50pct	4041	0	0	0	0	0
122717	19:52:11	1	1	4.0.10.0	1	29	mainpart_block	redword_trial	500	0	0	0	0	0	36	1	411	0	1	√	70pct	50pct	1062	0	0	0	0	0
122717	19:52:11	1	1	4.0.10.0	1	30	mainpart_block	greenword_trial	500	0	0	0	0	0	33	1	308	0	1	√	70pct	50pct	812	0	0	0	0	0
122717	19:52:11	1	1	4.0.10.0	1	31	mainpart_block	redword_trial	500	0	0	0	0	0	36	1	320	0	1	√	70pct	50pct	791	0	0	0	0	0
122717	19:52:11	1	1	4.0.10.0	1	32	mainpart_block	greenword_trial	500	0	0	0	0	0	33	1	501	0	1	√	70pct	50pct	1083	0	0	0	0	0
122717	19:52:11	1	1	4.0.10.0	1	33	mainpart_block	greenword_trial	500	0	0	0	0	0	33	1	319	0	1	√	70pct	50pct	833	0	0	0	0	0
122717	19:52:11	1	1	4.0.10.0	1	34	mainpart_block	redword_trial	500	0	0	0	0	0	36	1	466	0	1	√	70pct	50pct	1083	0	0	0	0	0
122717	19:52:11	1	1	4.0.10.0	1	35	mainpart_block	greenword_trial	500	0	0	0	0	0	33	1	538	0	1	√	70pct	50pct	1062	0	0	0	0	0
122717	19:52:11	1	1	4.0.10.0	1	36	mainpart_block	greenword_trial	500	0	0	0	0	0	33	1	424	0	1	√	70pct	50pct	999	0	0	0	0	0
122717	19:52:11	1	1	4.0.10.0	1	37	mainpart_block	greenword_trial	500	0	0	0	0	0	33	1	348	0	1	√	70pct	50pct	916	0	0	0	0	0
122717	19:52:11	1	1	4.0.10.0	1	38	mainpart_block	greenword_trial	500	0	0	0	0	0	33	1	318	0	1	√	70pct	50pct	895	0	0	0	0	0
122717	19:52:11	1	1	4.0.10.0	1	39	mainpart_block	greenword_trial	500	0	0	0	0	0	33	1	294	0	1	√	70pct	50pct	854	0	0	0	0	0
122717	19:52:11	1	1	4.0.10.0	1	40	mainpart_block	redword_trial	500	0	0	0	0	0	36	1	443	0	1	√	70pct	50pct	1062	0	0	0	0	0
122917	22:32:29	1	1	4.0.10.0	1	1	mainpart_block	greenword_trial	500	0	0	0	0	0	33	1	46	0	1	√	70pct	50pct	624	0	0	0	0	0
122917	22:32:29	1	1	4.0.10.0	1	2	mainpart_block	redword_trial	500	0	0	0	0	0	36	1	34	0	1	√	70pct	50pct	520	0	0	0	0	0
122917	22:32:29	1	1	4.0.10.0	1	3	mainpart_block	greenword_trial	500	0	0	0	0	0	33	1	47	0	1	√	70pct	50pct	541	0	0	0	0	0
122917	22:32:29	1	1	4.0.10.0	1	4	mainpart_block	greenword_trial	500	0	0	0	0	0	36	0	36	0	1	X	70pct	50pct	625	0	0	0	0	0
122917	22:32:29	1	1	4.0.10.0	1	5	mainpart_block	greenword_trial	500	0	0	0	0	0	33	1	45	0	1	√	70pct	50pct	520	0	0	0	0	0
122917	22:32:29	1	1	4.0.10.0	1	6	mainpart_block	greenword_trial	500	0	0	0	0	0	33	1	43	0	1	√	70pct	50pct	645	0	0	0	0	0
122917	22:32:29	1	1	4.0.10.0	1	7	mainpart_block	redword_trial	500	0	0	0	0	0	33	0	29	0	1	X	70pct	50pct	499	0	0	0	0	0
122917	22:32:29	1	1	4.0.10.0	1	8	mainpart_block	greenword_trial	500	0	0	0	0	0	33	1	48	0	1	√	70pct	50pct	625	0	0	0	0	0
122917	22:32:29	1	1	4.0.10.0	1	9	mainpart_block	greenword_trial	500	0	0	0	0	0	33	1	30	0	1	√	70pct	50pct	624	0	0	0	0	0
122917	22:32:29	1	1	4.0.10.0	1	10	mainpart_block	redword_trial	500	0	0	0	0	0	33	0	48	0	1	X	70pct	50pct	687	0	0	0	0	0
122917	22:32:29	1	1	4.0.10.0	1	11	mainpart_block	greenword_trial	500	0	0	0	0	0	33	1	40	0	1	√	70pct	50pct	624	0	0	0	0	0
122917	22:32:29	1	1	4.0.10.0	1	12	mainpart_block	redword_trial	500	0	0	0	0	0	33	0	49	0	1	X	70pct	50pct	541	0	0	0	0	0
122917	22:32:29	1	1	4.0.10.0	1	13	mainpart_block	greenword_trial	500	0	0	0	0	0	36	0	48	0	1	X	70pct	50pct	541	0	0	0	0	0
122917	22:32:29	1	1	4.0.10.0	1	14	mainpart_block	greenword_trial	500	0	0	0	0	0	36	0	29	0	1	X	70pct	50pct	583	0	0	0	0	0
122917	22:32:29	1	1	4.0.10.0	1	15	mainpart_block	greenword_trial	500	0	0	0	0	0	33	1	41	0	1	√	70pct	50pct	604	0	0	0	0	0
122917	22:32:29	1	1	4.0.10.0	1	16	mainpart_block	greenword_trial	500	0	0	0	0	0	33	1	43	0	1	√	70pct	50pct	645	0	0	0	0	0
122917	22:32:29	1	1	4.0.10.0	1	17	mainpart_block	redword_trial	500	0	0	0	0	0	33	0	60	0	1	X	70pct	50pct	604	0	0	0	0	0
122917	22:32:29	1	1	4.0.10.0	1	18	mainpart_block	redword_trial	500	0	0	0	0	0	36	1	43	0	1	√	70pct	50pct	604	0	0	0	0	0
122917	22:32:29	1	1	4.0.10.0	1	19	mainpart_block	greenword_trial	500	0	0	0	0	0	36	0	61	0	1	X	70pct	50pct	625	0	0	0	0	0
122917	22:32:29	1	1	4.0.10.0	1	20	mainpart_block	greenword_trial	500	0	0	0	0	0	33	1	53	0	1	√	70pct	50pct	562	0	0	0	0	0
122917	22:32:29	1	1	4.0.10.0	1	21	mainpart_block	greenword_trial	500	0	0	0	0	0	33	1	37	0	1	√	70pct	50pct	666	0	0	0	0	0
122917	22:32:29	1	1	4.0.10.0	1	22	mainpart_block	redword_trial	500	0	0	0	0	0	36	1	22	0	1	√	70pct	50pct	499	0	0	0	0	0
122917	22:32:29	1	1	4.0.10.0	1	23	mainpart_block	greenword_trial	500	0	0	0	0	0	33	1	27	0	1	√	70pct	50pct	604	0	0	0	0	0
122917	22:32:29	1	1	4.0.10.0	1	24	mainpart_block	redword_trial	500	0	0	0	0	0	33	0	30	0	1	X	70pct	50pct	562	0	0	0	0	0
122917	22:32:29	1	1	4.0.10.0	1	25	mainpart_block	greenword_trial	500	0	0	0	0	0	33	1	51	0	1	√	70pct	50pct	500	0	0	0	0	0
122917	22:32:29	1	1	4.0.10.0	1	26	mainpart_block	greenword_trial	500	0	0	0	0	0	33	1	35	0	1	√	70pct	50pct	541	0	0	0	0	0
122917	22:32:29	1	1	4.0.10.0	1	27	mainpart_block	redword_trial	500	0	0	0	0	0	36	1	35	0	1	√	70pct	50pct	624	0	0	0	0	0
122917	22:32:29	1	1	4.0.10.0	1	28	mainpart_block	redword_trial	500	0	0	0	0	0	36	1	33	0	1	√	70pct	50pct	541	0	0	0	0	0
122917	22:32:29	1	1	4.0.10.0	1	29	mainpart_block	redword_trial	500	0	0	0	0	0	36	1	52	0	1	√	70pct	50pct	624	0	0	0	0	0
122917	22:32:29	1	1	4.0.10.0	1	30	mainpart_block	greenword_trial	500	0	0	0	0	0	33	1	35	0	1	√	70pct	50pct	541	0	0	0	0	0
122917	22:32:29	1	1	4.0.10.0	1	31	mainpart_block	redword_trial	500	0	0	0	0	0	36	1	35	0	1	√	70pct	50pct	625	0	0	0	0	0
122917	22:32:29	1	1	4.0.10.0	1	32	mainpart_block	redword_trial	500	0	0	0	0	0	33	0	35	0	1	X	70pct	50pct	604	0	0	0	0	0
122917	22:32:29	1	1	4.0.10.0	1	33	mainpart_block	redword_trial	500	0	0	0	0	0	36	1	45	0	1	√	70pct	50pct	521	0	0	0	0	0
122917	22:32:29	1	1	4.0.10.0	1	34	mainpart_block	redword_trial	500	0	0	0	0	0	36	1	37	0	1	√	70pct	50pct	624	0	0	0	0	0
122917	22:32:29	1	1	4.0.10.0	1	35	mainpart_block	redword_trial	500	0	0	0	0	0	33	0	54	0	1	X	70pct	50pct	645	0	0	0	0	0
122917	22:32:29	1	1	4.0.10.0	1	36	mainpart_block	redword_trial	500	0	0	0	0	0	36	1	47	0	1	√	70pct	50pct	583	0	0	0	0	0
122917	22:32:29	1	1	4.0.10.0	1	37	mainpart_block	greenword_trial	500	0	0	0	0	0	36	0	48	0	1	X	70pct	50pct	604	0	0	0	0	0
122917	22:32:29	1	1	4.0.10.0	1	38	mainpart_block	redword_trial	500	0	0	0	0	0	36	1	50	0	1	√	70pct	50pct	666	0	0	0	0	0
122917	22:32:29	1	1	4.0.10.0	1	39	mainpart_block	redword_trial	500	0	0	0	0	0	36	1	43	0	1	√	70pct	50pct	562	0	0	0	0	0
122917	22:32:29	1	1	4.0.10.0	1	40	mainpart_block	redword_trial	500	0	0	0	0	0	36	1	28	0	1	√	70pct	50pct	583	0	0	0	0	0
122917	23:17:25	1	1	4.0.10.0	1	1	mainpart_block	greenword_trial	500	0	0	0	0	0	33	1	60	0	1	√	70pct	50pct	541	0	0	0	0	0
122917	23:17:25	1	1	4.0.10.0	1	2	mainpart_block	greenword_trial	500	0	0	0	0	0	36	0	52	0	1	X	70pct	50pct	624	0	0	0	0	0
122917	23:17:25	1	1	4.0.10.0	1	3	mainpart_block	greenword_trial	500	0	0	0	0	0	Ctrl+'Q'	1	0	0	1	√	70pct	50pct	-1	0	0	0	0	0
011218	17:42:49	1	1	4.0.10.0	1	1	mainpart_block	greenword_trial	500	0	0	0	0	0	33	1	1263	0	1	√	70pct	50pct	1708	0	0	0	0	0
011218	17:42:49	1	1	4.0.10.0	1	2	mainpart_block	greenword_trial	500	0	0	0	0	0	33	1	751	0	1	√	70pct	50pct	1229	0	0	0	0	0
011218	17:42:49	1	1	4.0.10.0	1	3	mainpart_block	redword_trial	500	0	0	0	0	0	36	1	492	0	1	√	70pct	50pct	1020	0	0	0	0	0
011218	17:42:49	1	1	4.0.10.0	1	4	mainpart_block	redword_trial	500	0	0	0	0	0	36	1	453	0	1	√	70pct	50pct	979	0	0	0	0	0
011218	17:42:49	1	1	4.0.10.0	1	5	mainpart_block	greenword_trial	500	0	0	0	0	0	33	1	354	0	1	√	70pct	50pct	854	0	0	0	0	0
011218	17:42:49	1	1	4.0.10.0	1	6	mainpart_block	greenword_trial	500	0	0	0	0	0	33	1	351	0	1	√	70pct	50pct	874	0	0	0	0	0
011218	17:42:49	1	1	4.0.10.0	1	7	mainpart_block	redword_trial	500	0	0	0	0	0	36	1	314	0	1	√	70pct	50pct	895	0	0	0	0	0
011218	17:42:49	1	1	4.0.10.0	1	8	mainpart_block	redword_trial	500	0	0	0	0	0	36	1	280	0	1	√	70pct	50pct	937	0	0	0	0	0
011218	17:42:49	1	1	4.0.10.0	1	9	mainpart_block	greenword_trial	500	0	0	0	0	0	33	1	314	0	1	√	70pct	50pct	854	0	0	0	0	0
011218	17:42:49	1	1	4.0.10.0	1	10	mainpart_block	greenword_trial	500	0	0	0	0	0	33	1	337	0	1	√	70pct	50pct	833	0	0	0	0	0
011218	17:42:49	1	1	4.0.10.0	1	11	mainpart_block	greenword_trial	500	0	0	0	0	0	33	1	347	0	1	√	70pct	50pct	833	0	0	0	0	0
011218	17:42:49	1	1	4.0.10.0	1	12	mainpart_block	redword_trial	500	0	0	0	0	0	36	1	322	0	1	√	70pct	50pct	874	0	0	0	0	0
011218	17:42:49	1	1	4.0.10.0	1	13	mainpart_block	greenword_trial	500	0	0	0	0	0	33	1	303	0	1	√	70pct	50pct	833	0	0	0	0	0
011218	17:42:49	1	1	4.0.10.0	1	14	mainpart_block	redword_trial	500	0	0	0	0	0	36	1	411	0	1	√	70pct	50pct	979	0	0	0	0	0
011218	17:42:49	1	1	4.0.10.0	1	15	mainpart_block	greenword_trial	500	0	0	0	0	0	33	1	313	0	1	√	70pct	50pct	854	0	0	0	0	0
011218	17:42:49	1	1	4.0.10.0	1	16	mainpart_block	greenword_trial	500	0	0	0	0	0	33	1	383	0	1	√	70pct	50pct	1021	0	0	0	0	0
011218	17:42:49	1	1	4.0.10.0	1	17	mainpart_block	redword_trial	500	0	0	0	0	0	36	1	370	0	1	√	70pct	50pct	875	0	0	0	0	0
011218	17:42:49	1	1	4.0.10.0	1	18	mainpart_block	redword_trial	500	0	0	0	0	0	36	1	366	0	1	√	70pct	50pct	812	0	0	0	0	0
011218	17:42:49	1	1	4.0.10.0	1	19	mainpart_block	greenword_trial	500	0	0	0	0	0	33	1	342	0	1	√	70pct	50pct	958	0	0	0	0	0
011218	17:42:49	1	1	4.0.10.0	1	20	mainpart_block	greenword_trial	500	0	0	0	0	0	33	1	356	0	1	√	70pct	50pct	958	0	0	0	0	0
011218	17:42:49	1	1	4.0.10.0	1	21	mainpart_block	greenword_trial	500	0	0	0	0	0	33	1	313	0	1	√	70pct	50pct	916	0	0	0	0	0
011218	17:42:49	1	1	4.0.10.0	1	22	mainpart_block	greenword_trial	500	0	0	0	0	0	33	1	302	0	1	√	70pct	50pct	833	0	0	0	0	0
011218	17:42:49	1	1	4.0.10.0	1	23	mainpart_block	redword_trial	500	0	0	0	0	0	33	0	335	0	1	X	70pct	50pct	895	0	0	0	0	0
011218	17:42:49	1	1	4.0.10.0	1	24	mainpart_block	greenword_trial	500	0	0	0	0	0	33	1	406	0	1	√	70pct	50pct	895	0	0	0	0	0
011218	17:42:49	1	1	4.0.10.0	1	25	mainpart_block	greenword_trial	500	0	0	0	0	0	33	1	353	0	1	√	70pct	50pct	937	0	0	0	0	0
011218	17:42:49	1	1	4.0.10.0	1	26	mainpart_block	redword_trial	500	0	0	0	0	0	36	1	421	0	1	√	70pct	50pct	1041	0	0	0	0	0
011218	17:42:49	1	1	4.0.10.0	1	27	mainpart_block	greenword_trial	500	0	0	0	0	0	33	1	395	0	1	√	70pct	50pct	979	0	0	0	0	0
011218	17:42:49	1	1	4.0.10.0	1	28	mainpart_block	redword_trial	500	0	0	0	0	0	36	1	423	0	1	√	70pct	50pct	896	0	0	0	0	0
011218	17:42:49	1	1	4.0.10.0	1	29	mainpart_block	redword_trial	500	0	0	0	0	0	36	1	345	0	1	√	70pct	50pct	916	0	0	0	0	0
011218	17:42:49	1	1	4.0.10.0	1	30	mainpart_block	redword_trial	500	0	0	0	0	0	36	1	313	0	1	√	70pct	50pct	958	0	0	0	0	0
011218	17:42:49	1	1	4.0.10.0	1	31	mainpart_block	redword_trial	500	0	0	0	0	0	36	1	334	0	1	√	70pct	50pct	916	0	0	0	0	0
011218	17:42:49	1	1	4.0.10.0	1	32	mainpart_block	redword_trial	500	0	0	0	0	0	36	1	305	0	1	√	70pct	50pct	833	0	0	0	0	0
011218	17:42:49	1	1	4.0.10.0	1	33	mainpart_block	greenword_trial	500	0	0	0	0	0	33	1	392	0	1	√	70pct	50pct	958	0	0	0	0	0
011218	17:42:49	1	1	4.0.10.0	1	34	mainpart_block	redword_trial	500	0	0	0	0	0	36	1	293	0	1	√	70pct	50pct	854	0	0	0	0	0
011218	17:42:49	1	1	4.0.10.0	1	35	mainpart_block	redword_trial	500	0	0	0	0	0	36	1	300	0	1	√	70pct	50pct	937	0	0	0	0	0
011218	17:42:49	1	1	4.0.10.0	1	36	mainpart_block	redword_trial	500	0	0	0	0	0	36	1	301	0	1	√	70pct	50pct	854	0	0	0	0	0
011218	17:42:49	1	1	4.0.10.0	1	37	mainpart_block	greenword_trial	500	0	0	0	0	0	33	1	343	0	1	√	70pct	50pct	874	0	0	0	0	0
011218	17:42:49	1	1	4.0.10.0	1	38	mainpart_block	greenword_trial	500	0	0	0	0	0	33	1	379	0	1	√	70pct	50pct	1020	0	0	0	0	0
011218	17:42:49	1	1	4.0.10.0	1	39	mainpart_block	redword_trial	500	0	0	0	0	0	36	1	330	0	1	√	70pct	50pct	833	0	0	0	0	0
011218	17:42:49	1	1	4.0.10.0	1	40	mainpart_block	redword_trial	500	0	0	0	0	0	36	1	273	0	1	√	70pct	50pct	812	0	0	0	0	0
011218	18:28:29	1	1	4.0.10.0	1	1	mainpart_block	redword_trial	500	0	0	0	0	0	36	1	47	0	1	√	70pct	50pct	666	0	0	0	0	0
011218	18:28:29	1	1	4.0.10.0	1	2	mainpart_block	redword_trial	500	0	0	0	0	0	36	1	54	0	1	√	70pct	50pct	604	0	0	0	0	0
011218	18:28:29	1	1	4.0.10.0	1	3	mainpart_block	redword_trial	500	0	0	0	0	0	36	1	25	0	1	√	70pct	50pct	500	0	0	0	0	0
011218	18:28:29	1	1	4.0.10.0	1	4	mainpart_block	redword_trial	500	0	0	0	0	0	36	1	46	0	1	√	70pct	50pct	708	0	0	0	0	0
011218	18:28:29	1	1	4.0.10.0	1	5	mainpart_block	greenword_trial	500	0	0	0	0	0	36	0	52	0	1	X	70pct	50pct	625	0	0	0	0	0
011218	18:28:29	1	1	4.0.10.0	1	6	mainpart_block	greenword_trial	500	0	0	0	0	0	36	0	26	0	1	X	70pct	50pct	499	0	0	0	0	0
011218	18:28:29	1	1	4.0.10.0	1	7	mainpart_block	greenword_trial	500	0	0	0	0	0	33	1	29	0	1	√	70pct	50pct	541	0	0	0	0	0
011218	18:28:29	1	1	4.0.10.0	1	8	mainpart_block	redword_trial	500	0	0	0	0	0	33	0	41	0	1	X	70pct	50pct	541	0	0	0	0	0
011218	18:28:29	1	1	4.0.10.0	1	9	mainpart_block	redword_trial	500	0	0	0	0	0	36	1	30	0	1	√	70pct	50pct	624	0	0	0	0	0
011218	18:28:29	1	1	4.0.10.0	1	10	mainpart_block	greenword_trial	500	0	0	0	0	0	36	0	28	0	1	X	70pct	50pct	625	0	0	0	0	0
011218	18:28:29	1	1	4.0.10.0	1	11	mainpart_block	redword_trial	500	0	0	0	0	0	36	1	24	0	1	√	70pct	50pct	562	0	0	0	0	0
011218	18:28:29	1	1	4.0.10.0	1	12	mainpart_block	greenword_trial	500	0	0	0	0	0	33	1	43	0	1	√	70pct	50pct	687	0	0	0	0	0
011218	18:28:29	1	1	4.0.10.0	1	13	mainpart_block	greenword_trial	500	0	0	0	0	0	33	1	30	0	1	√	70pct	50pct	687	0	0	0	0	0
011218	18:28:29	1	1	4.0.10.0	1	14	mainpart_block	redword_trial	500	0	0	0	0	0	33	0	39	0	1	X	70pct	50pct	583	0	0	0	0	0
011218	18:28:29	1	1	4.0.10.0	1	15	mainpart_block	greenword_trial	500	0	0	0	0	0	33	1	39	0	1	√	70pct	50pct	666	0	0	0	0	0
011218	18:28:29	1	1	4.0.10.0	1	16	mainpart_block	redword_trial	500	0	0	0	0	0	36	1	48	0	1	√	70pct	50pct	541	0	0	0	0	0
011218	18:28:29	1	1	4.0.10.0	1	17	mainpart_block	redword_trial	500	0	0	0	0	0	36	1	22	0	1	√	70pct	50pct	541	0	0	0	0	0
011218	18:28:29	1	1	4.0.10.0	1	18	mainpart_block	greenword_trial	500	0	0	0	0	0	33	1	44	0	1	√	70pct	50pct	520	0	0	0	0	0
011218	18:28:29	1	1	4.0.10.0	1	19	mainpart_block	redword_trial	500	0	0	0	0	0	36	1	36	0	1	√	70pct	50pct	624	0	0	0	0	0
011218	18:28:29	1	1	4.0.10.0	1	20	mainpart_block	redword_trial	500	0	0	0	0	0	36	1	44	0	1	√	70pct	50pct	583	0	0	0	0	0
011218	18:28:29	1	1	4.0.10.0	1	21	mainpart_block	greenword_trial	500	0	0	0	0	0	36	0	21	0	1	X	70pct	50pct	645	0	0	0	0	0
011218	18:28:29	1	1	4.0.10.0	1	22	mainpart_block	redword_trial	500	0	0	0	0	0	33	0	33	0	1	X	70pct	50pct	499	0	0	0	0	0
011218	18:28:29	1	1	4.0.10.0	1	23	mainpart_block	greenword_trial	500	0	0	0	0	0	33	1	43	0	1	√	70pct	50pct	687	0	0	0	0	0
011218	18:28:29	1	1	4.0.10.0	1	24	mainpart_block	greenword_trial	500	0	0	0	0	0	33	1	26	0	1	√	70pct	50pct	520	0	0	0	0	0
011218	18:28:29	1	1	4.0.10.0	1	25	mainpart_block	redword_trial	500	0	0	0	0	0	36	1	33	0	1	√	70pct	50pct	625	0	0	0	0	0
011218	18:28:29	1	1	4.0.10.0	1	26	mainpart_block	redword_trial	500	0	0	0	0	0	36	1	42	0	1	√	70pct	50pct	520	0	0	0	0	0
011218	18:28:29	1	1	4.0.10.0	1	27	mainpart_block	greenword_trial	500	0	0	0	0	0	33	1	32	0	1	√	70pct	50pct	583	0	0	0	0	0
011218	18:28:29	1	1	4.0.10.0	1	28	mainpart_block	redword_trial	500	0	0	0	0	0	36	1	34	0	1	√	70pct	50pct	624	0	0	0	0	0
011218	18:28:29	1	1	4.0.10.0	1	29	mainpart_block	greenword_trial	500	0	0	0	0	0	36	0	28	0	1	X	70pct	50pct	604	0	0	0	0	0
011218	18:28:29	1	1	4.0.10.0	1	30	mainpart_block	greenword_trial	500	0	0	0	0	0	33	1	54	0	1	√	70pct	50pct	520	0	0	0	0	0
011218	18:28:29	1	1	4.0.10.0	1	31	mainpart_block	redword_trial	500	0	0	0	0	0	36	1	41	0	1	√	70pct	50pct	687	0	0	0	0	0
011218	18:28:29	1	1	4.0.10.0	1	32	mainpart_block	greenword_trial	500	0	0	0	0	0	33	1	33	0	1	√	70pct	50pct	687	0	0	0	0	0
011218	18:28:29	1	1	4.0.10.0	1	33	mainpart_block	greenword_trial	500	0	0	0	0	0	36	0	40	0	1	X	70pct	50pct	666	0	0	0	0	0
011218	18:28:29	1	1	4.0.10.0	1	34	mainpart_block	greenword_trial	500	0	0	0	0	0	36	0	31	0	1	X	70pct	50pct	520	0	0	0	0	0
011218	18:28:29	1	1	4.0.10.0	1	35	mainpart_block	redword_trial	500	0	0	0	0	0	36	1	42	0	1	√	70pct	50pct	541	0	0	0	0	0
011218	18:28:29	1	1	4.0.10.0	1	36	mainpart_block	greenword_trial	500	0	0	0	0	0	33	1	54	0	1	√	70pct	50pct	520	0	0	0	0	0
011218	18:28:29	1	1	4.0.10.0	1	37	mainpart_block	greenword_trial	500	0	0	0	0	0	33	1	44	0	1	√	70pct	50pct	604	0	0	0	0	0
011218	18:28:29	1	1	4.0.10.0	1	38	mainpart_block	redword_trial	500	0	0	0	0	0	33	0	46	0	1	X	70pct	50pct	541	0	0	0	0	0
011218	18:28:29	1	1	4.0.10.0	1	39	mainpart_block	greenword_trial	500	0	0	0	0	0	33	1	46	0	1	√	70pct	50pct	541	0	0	0	0	0
011218	18:28:29	1	1	4.0.10.0	1	40	mainpart_block	redword_trial	500	0	0	0	0	0	36	1	36	0	1	√	70pct	50pct	541	0	0	0	0	0
011218	18:30:18	1	1	4.0.10.0	1	1	word_block	redword_trial	500	0	0	0	0	0	36	1	1442	0	1	√	70pct	50pct	2083	0	0	0	0	0
011218	18:30:18	1	1	4.0.10.0	1	2	word_block	greenword_trial	500	0	0	0	0	0	33	1	148	0	1	√	70pct	50pct	770	0	0	0	0	0
011218	18:30:18	1	1	4.0.10.0	1	3	word_block	redword_trial	500	0	0	0	0	0	36	1	417	0	1	√	70pct	50pct	958	0	0	0	0	0
011218	18:30:18	1	1	4.0.10.0	1	4	word_block	redword_trial	500	0	0	0	0	0	36	1	362	0	1	√	70pct	50pct	979	0	0	0	0	0
011218	18:30:18	1	1	4.0.10.0	1	5	word_block	greenword_trial	500	0	0	0	0	0	33	1	321	0	1	√	70pct	50pct	853	0	0	0	0	0
011218	18:30:18	1	1	4.0.10.0	1	6	word_block	redword_trial	500	0	0	0	0	0	36	1	471	0	1	√	70pct	50pct	937	0	0	0	0	0
011218	18:30:18	1	1	4.0.10.0	1	7	word_block	greenword_trial	500	0	0	0	0	0	33	1	349	0	1	√	70pct	50pct	1000	0	0	0	0	0
011218	18:30:18	1	1	4.0.10.0	1	8	word_block	redword_trial	500	0	0	0	0	0	36	1	386	0	1	√	70pct	50pct	1000	0	0	0	0	0
011218	18:30:18	1	1	4.0.10.0	1	9	word_block	redword_trial	500	0	0	0	0	0	36	1	354	0	1	√	70pct	50pct	874	0	0	0	0	0
011218	18:30:18	1	1	4.0.10.0	1	10	word_block	greenword_trial	500	0	0	0	0	0	33	1	378	0	1	√	70pct	50pct	874	0	0	0	0	0
011218	18:30:18	1	1	4.0.10.0	1	11	word_block	redword_trial	500	0	0	0	0	0	36	1	533	0	1	√	70pct	50pct	999	0	0	0	0	0
011218	18:30:18	1	1	4.0.10.0	1	12	word_block	redword_trial	500	0	0	0	0	0	36	1	302	0	1	√	70pct	50pct	937	0	0	0	0	0
011218	18:30:18	1	1	4.0.10.0	1	13	word_block	greenword_trial	500	0	0	0	0	0	33	1	338	0	1	√	70pct	50pct	854	0	0	0	0	0
011218	18:30:18	1	1	4.0.10.0	1	14	word_block	greenword_trial	500	0	0	0	0	0	33	1	336	0	1	√	70pct	50pct	833	0	0	0	0	0
011218	18:30:18	1	1	4.0.10.0	1	15	word_block	greenword_trial	500	0	0	0	0	0	33	1	326	0	1	√	70pct	50pct	895	0	0	0	0	0
011218	18:30:18	1	1	4.0.10.0	1	16	word_block	redword_trial	500	0	0	0	0	0	36	1	354	0	1	√	70pct	50pct	874	0	0	0	0	0
011218	18:30:18	1	1	4.0.10.0	1	17	word_block	redword_trial	500	0	0	0	0	0	36	1	355	0	1	√	70pct	50pct	833	0	0	0	0	0
011218	18:30:18	1	1	4.0.10.0	1	18	word_block	greenword_trial	500	0	0	0	0	0	33	1	355	0	1	√	70pct	50pct	833	0	0	0	0	0
011218	18:30:18	1	1	4.0.10.0	1	19	word_block	greenword_trial	500	0	0	0	0	0	33	1	336	0	1	√	70pct	50pct	875	0	0	0	0	0
011218	18:30:18	1	1	4.0.10.0	1	20	word_block	greenword_trial	500	0	0	0	0	0	33	1	329	0	1	√	70pct	50pct	833	0	0	0	0	0
011218	18:30:18	1	1	4.0.10.0	1	21	word_block	redword_trial	500	0	0	0	0	0	36	1	338	0	1	√	70pct	50pct	833	0	0	0	0	0
011218	18:30:18	1	1	4.0.10.0	1	22	word_block	redword_trial	500	0	0	0	0	0	36	1	296	0	1	√	70pct	50pct	812	0	0	0	0	0
011218	18:30:18	1	1	4.0.10.0	1	23	word_block	greenword_trial	500	0	0	0	0	0	33	1	319	0	1	√	70pct	50pct	937	0	0	0	0	0
011218	18:30:18	1	1	4.0.10.0	1	24	word_block	greenword_trial	500	0	0	0	0	0	33	1	309	0	1	√	70pct	50pct	770	0	0	0	0	0
011218	18:30:18	1	1	4.0.10.0	1	25	word_block	redword_trial	500	0	0	0	0	0	36	1	332	0	1	√	70pct	50pct	875	0	0	0	0	0
011218	18:30:18	1	1	4.0.10.0	1	26	word_block	redword_trial	500	0	0	0	0	0	36	1	344	0	1	√	70pct	50pct	812	0	0	0	0	0
011218	18:30:18	1	1	4.0.10.0	1	27	word_block	greenword_trial	500	0	0	0	0	0	33	1	332	0	1	√	70pct	50pct	833	0	0	0	0	0
011218	18:30:18	1	1	4.0.10.0	1	28	word_block	greenword_trial	500	0	0	0	0	0	33	1	364	0	1	√	70pct	50pct	1000	0	0	0	0	0
011218	18:30:18	1	1	4.0.10.0	1	29	word_block	greenword_trial	500	0	0	0	0	0	33	1	328	0	1	√	70pct	50pct	895	0	0	0	0	0
011218	18:30:18	1	1	4.0.10.0	1	30	word_block	redword_trial	500	0	0	0	0	0	36	1	332	0	1	√	70pct	50pct	916	0	0	0	0	0
011218	18:30:18	1	1	4.0.10.0	1	31	word_block	redword_trial	500	0	0	0	0	0	36	1	346	0	1	√	70pct	50pct	958	0	0	0	0	0
011218	18:30:18	1	1	4.0.10.0	1	32	word_block	greenword_trial	500	0	0	0	0	0	33	1	570	0	1	√	70pct	50pct	1104	0	0	0	0	0
011218	18:30:18	1	1	4.0.10.0	1	33	word_block	greenword_trial	500	0	0	0	0	0	33	1	330	0	1	√	70pct	50pct	833	0	0	0	0	0
011218	18:30:18	1	1	4.0.10.0	1	34	word_block	redword_trial	500	0	0	0	0	0	36	1	433	0	1	√	70pct	50pct	916	0	0	0	0	0
011218	18:30:18	1	1	4.0.10.0	1	35	word_block	greenword_trial	500	0	0	0	0	0	33	1	329	0	1	√	70pct	50pct	791	0	0	0	0	0
011218	18:30:18	1	1	4.0.10.0	1	36	word_block	greenword_trial	500	0	0	0	0	0	33	1	326	0	1	√	70pct	50pct	875	0	0	0	0	0
011218	18:30:18	1	1	4.0.10.0	1	37	word_block	greenword_trial	500	0	0	0	0	0	33	1	265	0	1	√	70pct	50pct	916	0	0	0	0	0
011218	18:30:18	1	1	4.0.10.0	1	38	word_block	redword_trial	500	0	0	0	0	0	36	1	292	0	1	√	70pct	50pct	791	0	0	0	0	0
011218	18:30:18	1	1	4.0.10.0	1	39	word_block	redword_trial	500	0	0	0	0	0	36	1	379	0	1	√	70pct	50pct	874	0	0	0	0	0
011218	18:30:18	1	1	4.0.10.0	1	40	word_block	redword_trial	500	0	0	0	0	0	36	1	375	0	1	√	70pct	50pct	895	0	0	0	0	0
